wavelength,reflectance
177.272,-810
177.658,787.5
178.044,270
178.43,56.25
178.816,-207.69
179.203,-105.88
179.589,51.43
179.975,-34.62
180.361,-32.14
180.747,192.86
181.133,58.7
181.519,-900
181.904,2700
182.29,96.43
182.676,69.23
183.062,47.37
183.447,24.66
183.833,103.85
184.219,-67.92
184.604,236.84
184.99,450
185.375,32.14
185.761,-52.94
186.146,0
186.531,128.57
186.917,36.73
187.302,29.03
187.687,22.5
188.073,0
188.458,33.96
188.843,-52.94
189.228,48.65
189.613,2700
189.998,14.52
190.383,-158.82
190.768,3600
191.153,128.57
191.538,0
191.923,-40.91
192.307,-138.46
192.692,284.21
193.077,-675
193.461,142.11
193.846,0
194.231,-14.52
194.615,-264.71
195,40.91
195.384,284.21
195.769,-34.62
196.153,-264.71
196.537,67.5
196.922,-103.85
197.306,90
197.69,25.71
198.074,34.62
198.458,55.1
198.843,-16.98
199.227,225
199.611,70.79
199.995,12.68
200.379,0
200.763,-562.5
201.146,-105.88
201.53,11.25
201.914,45
202.298,50.94
202.681,-77.14
203.065,-450
203.449,0
203.832,-77.14
204.216,-900
204.599,-102.86
204.983,9.18
205.366,45
205.75,1800
206.133,22.5
206.516,883.02
206.9,-158.82
207.283,-40.91
207.666,33.75
208.049,14.52
208.432,0
208.815,0
209.198,-105.88
209.581,16.82
209.964,12.68
210.347,67.92
210.73,0
211.113,-154.29
211.496,-40.91
211.879,-43.55
212.261,-50.56
212.644,0
213.027,45
213.409,9.18
213.792,67.92
214.174,0
214.557,284.21
214.939,33.64
215.322,-242.31
215.704,-128.57
216.086,-22.5
216.469,9.18
216.851,40.91
217.233,16.98
217.615,-33.75
217.997,-29.03
218.379,-173.08
218.761,-116.13
219.143,-12.68
219.525,0
219.907,16.98
220.289,40.45
220.671,15.52
221.053,-180
221.435,-9.18
221.816,-33.75
222.198,34.62
222.58,0
222.961,-14.52
223.343,0
223.724,33.64
224.106,11.25
224.487,8.41
224.869,11.25
225.25,9.18
225.631,-60.67
226.013,-16.82
226.394,-60.67
226.775,9.18
227.156,6.72
227.537,-14.4
227.919,-36.73
228.3,0
228.681,-50.56
229.062,-22.36
229.442,-5.29
229.823,0
230.204,0
230.585,18.27
230.966,15.08
231.347,-8.37
231.727,0
232.108,0
232.488,-10.04
232.869,-10.04
233.25,-6.69
233.63,-17.93
234.01,-3.04
234.391,2.95
234.771,0
235.152,-5.73
235.532,-10.56
235.912,8.35
236.292,6.99
236.672,8.72
237.053,6.99
237.433,0
237.813,3.04
238.193,9.54
238.573,1.35
238.953,0
239.333,7.61
239.712,17.31
240.092,8.45
240.472,0
240.852,9.21
241.231,10.22
241.611,6.13
241.991,8.94
242.37,8.86
242.75,12.91
243.129,10.61
243.509,2.29
243.888,10.65
244.267,7.75
244.647,8.23
245.026,9.88
245.405,9.53
245.784,5.7
246.164,5.46
246.543,7.87
246.922,9.35
247.301,5.75
247.68,7.3
248.059,8.26
248.438,8.46
248.817,8.74
249.195,9.31
249.574,7.11
249.953,5.03
250.332,6.15
250.71,6.78
251.089,8.8
251.468,9.35
251.846,7.31
252.225,10.53
252.603,8.17
252.982,9.51
253.36,7.87
253.738,10.6
254.117,10.53
254.495,8.11
254.873,8.89
255.251,9.33
255.63,7.59
256.008,8.71
256.386,7.15
256.764,5.59
257.142,7.15
257.52,7.08
257.898,9.97
258.276,9.92
258.653,6.46
259.031,7.56
259.409,8.13
259.787,6.71
260.164,7.72
260.542,8.01
260.92,9.04
261.297,10.2
261.675,7.67
262.052,6.18
262.43,8.77
262.807,8.38
263.184,8.13
263.562,8.4
263.939,8.01
264.316,9.54
264.693,7.93
265.07,8.02
265.448,8.11
265.825,8.64
266.202,7.77
266.579,10.46
266.956,8.23
267.333,8.25
267.709,9.29
268.086,8.91
268.463,8.02
268.84,9.35
269.216,8.53
269.593,8.47
269.97,8.27
270.346,7.97
270.723,8.63
271.099,10
271.476,10.94
271.852,10.88
272.229,8.21
272.605,9.07
272.981,9.79
273.358,9.38
273.734,9.75
274.11,9.79
274.486,9.75
274.862,8.95
275.238,9.36
275.614,9.14
275.99,10.08
276.366,10.47
276.742,12.18
277.118,9.79
277.494,7.75
277.87,8.57
278.245,8.6
278.621,11.43
278.997,10
279.372,9.19
279.748,11.32
280.123,10.97
280.499,10.88
280.874,10.77
281.25,10.18
281.625,9.81
282,9.59
282.376,11.65
282.751,11.51
283.126,9.54
283.501,10.38
283.876,9.58
284.252,9.66
284.627,12.82
285.002,9.85
285.377,10.62
285.751,9.6
286.126,10.32
286.501,12.57
286.876,9.56
287.251,9.47
287.625,9.66
288,10.39
288.375,10.91
288.749,9.66
289.124,7.57
289.498,11.72
289.873,8.95
290.247,11.46
290.622,10.29
290.996,8.71
291.37,10.47
291.745,8.53
292.119,9.43
292.493,10.74
292.867,12.47
293.241,9.95
293.616,8.93
293.99,11.29
294.364,11.11
294.737,8.31
295.111,9.09
295.485,9.72
295.859,9.02
296.233,8.4
296.607,10.46
296.98,9.79
297.354,10.29
297.728,9.58
298.101,10.61
298.475,9.07
298.848,12.5
299.222,9.84
299.595,9.98
299.968,9.61
300.342,8.57
300.715,10.6
301.088,10.59
301.462,9.51
301.835,10.62
302.208,10.81
302.581,10.25
302.954,9.57
303.327,10.06
303.7,8.84
304.073,11.61
304.446,10.27
304.819,8.6
305.192,10.47
305.564,8.75
305.937,9.22
306.31,10.87
306.682,10.83
307.055,8.95
307.428,9.07
307.8,12.14
308.173,10.88
308.545,11.49
308.917,10.93
309.29,8.4
309.662,9.14
310.034,10.53
310.407,10.25
310.779,10.27
311.151,9.26
311.523,9.73
311.895,9.92
312.267,7.93
312.639,10
313.011,7.57
313.383,6.83
313.755,9.81
314.127,10.14
314.498,10.68
314.87,10.8
315.242,9.07
315.614,9.02
315.985,9.27
316.357,9.65
316.728,9.21
317.1,10.31
317.471,8.8
317.843,10.18
318.214,8.43
318.585,10.43
318.957,9.89
319.328,7.12
319.699,10.2
320.07,10.25
320.441,9.12
320.813,8.34
321.184,9.41
321.555,8.06
321.926,7.79
322.297,10.68
322.667,10
323.038,8.52
323.409,9.65
323.78,11.2
324.151,9.24
324.521,8.19
324.892,8.91
325.262,10.44
325.633,10.93
326.004,10.44
326.374,10.52
326.744,10.36
327.115,10.14
327.485,9.09
327.855,8.13
328.226,9.79
328.596,9.32
328.966,9.2
329.336,8.45
329.706,9.27
330.076,9.73
330.447,8.65
330.816,7.8
331.186,9.7
331.556,13.47
331.926,8.99
332.296,9.34
332.666,8.1
333.036,7.8
333.405,9.92
333.775,6.39
334.144,8.53
334.514,9.81
334.884,8.01
335.253,7.54
335.623,8.66
335.992,10.93
336.361,10.08
336.731,9.63
337.1,10.27
337.469,8.08
337.838,10.25
338.208,9.81
338.577,7.52
338.946,9.09
339.315,9.98
339.684,10.63
340.053,10.36
340.422,9.22
340.79,9.45
341.159,10.33
341.528,9.41
341.897,9.45
342.266,6.95
342.634,9.39
343.003,9.63
343.371,8.43
343.74,8.36
344.108,10.08
344.477,9.02
344.845,7.69
345.214,8.97
345.582,8.89
345.95,8.54
346.319,10.06
346.687,9.21
347.055,10.46
347.423,8.15
347.791,8.92
348.159,9.48
348.527,8.06
348.895,10.33
349.263,8.76
349.631,8.47
349.999,11.14
350.367,10
350.734,9.07
351.102,8.36
351.47,8.25
351.837,8.9
352.205,8.63
352.573,8.9
352.94,10.27
353.308,11.87
353.675,9.87
354.042,10.14
354.41,8.47
354.777,8.34
355.144,9.79
355.511,7.65
355.879,8.84
356.246,9.84
356.613,11.21
356.98,10.31
357.347,8.95
357.714,8.87
358.081,9.45
358.448,12.16
358.815,10.31
359.181,10.25
359.548,10.41
359.915,9.76
360.282,10.03
360.648,11.3
361.015,11.4
361.381,9.79
361.748,10.41
362.114,9.98
362.481,8.71
362.847,10.06
363.214,11.61
363.58,8.77
363.946,9.34
364.312,10.99
364.678,10.14
365.045,10.08
365.411,11.53
365.777,10.33
366.143,11.82
366.509,9.24
366.875,10.46
367.241,7.31
367.606,9.07
367.972,11.41
368.338,11.02
368.704,11.11
369.069,9.43
369.435,10.76
369.801,11.05
370.166,10.77
370.532,10.96
370.897,9.77
371.263,12.57
371.628,11.72
371.993,11.81
372.359,11.57
372.724,11.06
373.089,11.66
373.454,11.11
373.82,11.57
374.185,12.18
374.55,11.14
374.915,10.91
375.28,11.28
375.645,11.89
376.01,13.29
376.374,13.58
376.739,12.19
377.104,13.59
377.469,12.67
377.833,11.6
378.198,13.71
378.563,15.49
378.927,14.08
379.292,11.57
379.656,12.57
380.021,12.57
380.385,11.84
380.749,11.95
381.114,12.53
381.478,13.16
381.842,13.74
382.206,12.8
382.571,14.6
382.935,15.28
383.299,14.12
383.663,15.05
384.027,13.69
384.391,14.74
384.755,13.42
385.118,15.59
385.482,13.4
385.846,13.64
386.21,13.79
386.573,14.69
386.937,16.36
387.301,15.16
387.664,15.56
388.028,14.55
388.391,15.55
388.755,15.85
389.118,15.06
389.481,15.29
389.845,15.99
390.208,16.03
390.571,15.77
390.934,15.94
391.298,16.89
391.661,17.25
392.024,17.25
392.387,17.86
392.75,17.4
393.113,15.57
393.476,15.9
393.838,16.53
394.201,16.57
394.564,17.4
394.927,16.77
395.289,18.19
395.652,17.56
396.015,19.16
396.377,17.38
396.74,17.15
397.102,17.89
397.465,19.54
397.827,18.52
398.189,17.59
398.552,17.65
398.914,17.8
399.276,21.49
399.638,20.84
400,19.88
400.363,20.48
400.725,18.17
401.087,18.52
401.449,20.17
401.81,20.6
402.172,18.79
402.534,21.32
402.896,20.4
403.258,17.9
403.619,18.29
403.981,18.64
404.343,19.68
404.704,19.44
405.066,19.37
405.427,18.9
405.789,19.76
406.15,19.32
406.512,22.81
406.873,20.16
407.234,20.95
407.596,21.41
407.957,19.58
408.318,21.52
408.679,21.39
409.04,21.1
409.401,20.82
409.762,23.52
410.123,21.41
410.484,22.14
410.845,20.77
411.206,22.27
411.567,22.47
411.927,22.14
412.288,21.9
412.649,23.4
413.009,21.84
413.37,22.47
413.731,22.57
414.091,21.18
414.452,25.05
414.812,22.34
415.172,21.45
415.533,22.16
415.893,23.01
416.253,22.4
416.613,20
416.974,22.88
417.334,23.82
417.694,22.9
418.054,22.71
418.414,22.42
418.774,21.86
419.134,22.67
419.494,21.35
419.853,22.95
420.213,23.29
420.573,20.33
420.933,21.78
421.292,23.36
421.652,23.04
422.011,22.87
422.371,23.36
422.73,23.28
423.09,21.46
423.449,22.23
423.809,22.19
424.168,24.17
424.527,23.62
424.887,23.94
425.246,24.42
425.605,22.52
425.964,23.75
426.323,23.03
426.682,21.6
427.041,23.77
427.4,24.47
427.759,22.83
428.118,22.7
428.477,22.21
428.835,23.33
429.194,22.21
429.553,23.63
429.911,22.66
430.27,26.01
430.629,24.19
430.987,22.19
431.346,24.92
431.704,23.43
432.062,22.76
432.421,23
432.779,25.74
433.137,24.82
433.496,23.11
433.854,23.29
434.212,24.33
434.57,22.4
434.928,23.29
435.286,22.98
435.644,25.51
436.002,24.07
436.36,24.39
436.718,26.49
437.075,23.24
437.433,23.77
437.791,25.27
438.149,25.94
438.506,25.85
438.864,25.1
439.221,26.06
439.579,27.31
439.936,23.69
440.294,25.48
440.651,24.41
441.009,24.83
441.366,25.61
441.723,25.52
442.08,25.63
442.437,25.01
442.795,25.23
443.152,24.37
443.509,26.26
443.866,25.05
444.223,26.38
444.58,25.87
444.936,27.04
445.293,25.58
445.65,25.3
446.007,26.52
446.363,26.23
446.72,26.56
447.077,24.28
447.433,27.35
447.79,25.76
448.146,26.58
448.503,26.47
448.859,26.33
449.215,25.47
449.572,26.08
449.928,26.38
450.284,27.28
450.641,26.05
450.997,26.1
451.353,26.72
451.709,26.26
452.065,26.87
452.421,27.65
452.777,24.79
453.133,26.3
453.488,25.38
453.844,27.41
454.2,26.47
454.556,27.56
454.911,27.23
455.267,25.97
455.623,24.87
455.978,26.18
456.334,26.52
456.689,27.96
457.045,25.61
457.4,26.67
457.755,26.72
458.111,28.28
458.466,25.57
458.821,26.98
459.176,26.9
459.531,25.52
459.886,26.91
460.242,27.55
460.597,27.03
460.951,24.24
461.306,25.76
461.661,27.54
462.016,28.13
462.371,26.2
462.726,25.1
463.08,26.67
463.435,26.5
463.79,28.14
464.144,27.11
464.499,26.7
464.853,25.95
465.208,28.64
465.562,26.33
465.916,25.53
466.271,26.59
466.625,24.39
466.979,26.16
467.333,25.48
467.688,27
468.042,25.85
468.396,26.26
468.75,26.65
469.104,25.52
469.458,26.81
469.811,25.4
470.165,25.93
470.519,27.28
470.873,27.48
471.227,28.84
471.58,28.05
471.934,26.72
472.287,28.52
472.641,28.08
472.995,28.01
473.348,28.4
473.701,26.72
474.055,26.18
474.408,27.67
474.761,27.37
475.115,26.42
475.468,26.75
475.821,29.14
476.174,27.93
476.527,26.24
476.88,27.69
477.233,26.96
477.586,27.62
477.939,28.55
478.292,26.98
478.645,26.56
478.998,26.62
479.35,26.57
479.703,27.78
480.056,27.34
480.408,25.97
480.761,27.81
481.113,28.48
481.466,28.99
481.818,27.12
482.171,25.41
482.523,28.22
482.875,27.56
483.228,27.71
483.58,26.16
483.932,26.18
484.284,25.6
484.636,26.57
484.988,27.38
485.34,27.62
485.692,26.11
486.044,25.66
486.396,27.26
486.748,27.71
487.1,27.39
487.451,26.45
487.803,25.52
488.155,26.22
488.506,27.03
488.858,25.83
489.209,26.37
489.561,26.44
489.912,26.43
490.264,26.6
490.615,27.01
490.966,26.83
491.318,27.01
491.669,25.92
492.02,26.77
492.371,26.85
492.722,26.71
493.073,25.64
493.424,27.43
493.775,27.72
494.126,28.54
494.477,27.34
494.828,27.25
495.179,26.58
495.53,25.79
495.88,26.4
496.231,26.22
496.582,26.94
496.932,26.83
497.283,26.94
497.633,26.42
497.984,27.05
498.334,26.88
498.684,26.58
499.035,27.12
499.385,26.75
499.735,26.54
500.086,26.69
500.436,27.34
500.786,25.74
501.136,25.75
501.486,25.55
501.836,25.38
502.186,25.08
502.536,26.08
502.886,25.62
503.235,26.43
503.585,28
503.935,26.57
504.285,26.11
504.634,24.63
504.984,25.83
505.333,25.97
505.683,25.38
506.032,25.84
506.382,25.49
506.731,25.62
507.08,26.33
507.43,25.57
507.779,25.88
508.128,27.77
508.477,26.27
508.826,26.49
509.176,25.35
509.525,24.26
509.874,26.15
510.222,25.24
510.571,25.16
510.92,24.1
511.269,23.88
511.618,24.12
511.967,24.72
512.315,24.25
512.664,26.92
513.012,24.07
513.361,23.6
513.71,24.88
514.058,24.37
514.406,24.8
514.755,25.05
515.103,24.43
515.451,24.1
515.8,25.13
516.148,23.31
516.496,24.03
516.844,25.05
517.192,24.96
517.54,25.21
517.888,23.77
518.236,22.75
518.584,23.53
518.932,26.45
519.28,23.54
519.628,24.01
519.975,24.36
520.323,23.2
520.671,23.56
521.018,22.96
521.366,23.28
521.713,21.86
522.061,21.34
522.408,22.84
522.756,23.64
523.103,24.09
523.45,24.04
523.798,22.38
524.145,23.51
524.492,23.59
524.839,22.78
525.186,23.47
525.533,22.69
525.88,22.23
526.227,22.82
526.574,21.84
526.921,21.22
527.268,23.05
527.615,20.8
527.961,23.47
528.308,23
528.655,23.1
529.001,21.43
529.348,22.33
529.694,21.92
530.041,19.53
530.387,22.23
530.734,22.25
531.08,22.93
531.426,21.1
531.773,21.29
532.119,22
532.465,21.13
532.811,21.05
533.157,22.15
533.503,20.51
533.849,20.19
534.195,21.08
534.541,22
534.887,22.31
535.233,18.66
535.579,20.71
535.924,20.11
536.27,20.99
536.616,21.43
536.961,20.83
537.307,19.73
537.652,19.45
537.998,21.67
538.343,19.59
538.689,19.97
539.034,21.36
539.379,21.21
539.725,20.17
540.07,19.31
540.415,18.22
540.76,21.16
541.105,20.57
541.45,19.53
541.795,21.64
542.14,20.21
542.485,18.68
542.83,20.1
543.175,20.43
543.519,19.38
543.864,20.9
544.209,21.25
544.554,18.47
544.898,18.66
545.243,17.54
545.587,19.97
545.932,20
546.276,18.96
546.621,19.52
546.965,17.35
547.309,18.32
547.653,17.99
547.998,18.17
548.342,18.43
548.686,19.87
549.03,19.01
549.374,18.85
549.718,19.08
550.062,16.8
550.406,18.73
550.75,18.32
551.094,17.22
551.437,19.02
551.781,16
552.125,17.25
552.468,17.32
552.812,15.4
553.156,16.29
553.499,17.51
553.843,17.14
554.186,16.3
554.529,14.85
554.873,16.95
555.216,17.23
555.559,18.05
555.902,17.21
556.246,16
556.589,14.45
556.932,15.36
557.275,15.65
557.618,17.26
557.961,16.31
558.304,17.58
558.646,16.25
558.989,14.05
559.332,15.45
559.675,14.8
560.017,14.22
560.36,14.84
560.703,15.12
561.045,14.95
561.388,15.14
561.73,15.6
562.073,14.24
562.415,14.5
562.757,13.69
563.1,12.5
563.442,15.55
563.784,14.12
564.126,14.62
564.468,14.1
564.81,14.1
565.152,13.46
565.494,13.26
565.836,13.24
566.178,15.09
566.52,13.94
566.862,14.64
567.204,13.94
567.545,13.11
567.887,12.74
568.229,12.72
568.57,13.8
568.912,14.02
569.253,13.01
569.595,11.84
569.936,12.8
570.277,12.86
570.619,14.05
570.96,11.77
571.301,13
571.642,13.05
571.984,12.58
572.325,11.47
572.666,13.43
573.007,12.63
573.348,12.59
573.689,12.85
574.03,12.49
574.37,11.61
574.711,12.22
575.052,12.33
575.393,10.24
575.733,11.81
576.074,12.15
576.414,11.64
576.755,12.71
577.095,12.17
577.436,11.88
577.776,11.88
578.117,11.65
578.457,11.8
578.797,11.16
579.137,11.45
579.478,11.1
579.818,11.96
580.158,11.23
580.498,11.28
580.838,11.01
581.178,11.21
581.518,11.25
581.858,11.92
582.197,11.27
582.537,10.77
582.877,10.58
583.217,10.73
583.556,11.45
583.896,10.87
584.235,11.41
584.575,11.06
584.914,10.43
585.254,10.54
585.593,11
585.933,11.18
586.272,11.23
586.611,10.69
586.95,10.62
587.289,11.1
587.629,10.91
587.968,10.54
588.307,10.53
588.646,10.42
588.985,10.21
589.323,10.37
589.662,9.88
590.001,10.79
590.34,11.26
590.679,11.19
591.017,10.13
591.356,10.22
591.695,9.95
592.033,10.36
592.372,10.73
592.71,10.5
593.048,9.98
593.387,10.56
593.725,10.72
594.063,10.4
594.402,10.73
594.74,11.28
595.078,10.47
595.416,10.93
595.754,10.65
596.092,10.21
596.43,10.11
596.768,10.95
597.106,10.29
597.444,10.25
597.781,10.97
598.119,10.54
598.457,10.1
598.795,10.17
599.132,9.89
599.47,9.43
599.807,10.86
600.145,10.28
600.482,10.21
600.82,9.82
601.157,10.2
601.494,9.87
601.831,9.69
602.169,10.23
602.506,10.48
602.843,9.7
603.18,9.74
603.517,10.69
603.854,9.55
604.191,10.31
604.528,10.28
604.865,8.83
605.202,9.5
605.538,10.16
605.875,9.92
606.212,9.86
606.548,10.39
606.885,10.32
607.222,10.43
607.558,9.15
607.895,9.6
608.231,8.86
608.567,9.49
608.904,9.23
609.24,9.24
609.576,9.59
609.912,9.89
610.248,9.78
610.585,9.35
610.921,9.24
611.257,9.78
611.593,9.47
611.929,9.46
612.264,9.61
612.6,9.18
612.936,8.75
613.272,8.41
613.608,10.59
613.943,9.89
614.279,10.21
614.614,9.94
614.95,9.16
615.285,9.62
615.621,9.15
615.956,8.81
616.292,9.7
616.627,9.47
616.962,9.11
617.297,9.47
617.632,9.46
617.968,10.39
618.303,9.99
618.638,8.94
618.973,9.03
619.308,10.62
619.643,8.84
619.977,10.58
620.312,10.46
620.647,10.02
620.982,9.12
621.316,9.6
621.651,9.55
621.986,9.3
622.32,9.35
622.655,9.71
622.989,9.81
623.324,9
623.658,10.36
623.992,9.7
624.326,9.09
624.661,9.71
624.995,10.15
625.329,8.96
625.663,9.23
625.997,9.49
626.331,8.32
626.665,9.36
626.999,10.12
627.333,10.63
627.667,9.19
628.001,9.82
628.334,9.55
628.668,9.97
629.002,10.38
629.335,9.46
629.669,11.03
630.002,11.15
630.336,9.65
630.669,10.6
631.003,11.11
631.336,10.85
631.669,10.51
632.003,11.24
632.336,9.8
632.669,10.46
633.002,9.18
633.335,11
633.668,9.83
634.001,10.8
634.334,10.43
634.667,9.98
635,11.15
635.333,10.86
635.665,10.13
635.998,10.76
636.331,9.83
636.663,8.99
636.996,8.15
637.328,10.27
637.661,9.67
637.993,10.16
638.326,10.61
638.658,10.59
638.99,10.08
639.323,9.77
639.655,9.4
639.987,9.88
640.319,9.44
640.651,11.07
640.983,9.7
641.315,10.56
641.647,10.23
641.979,11.43
642.311,9.52
642.643,10.25
642.975,13.01
643.306,9.32
643.638,9.68
643.97,10.56
644.301,10.84
644.633,6.99
644.964,9.46
645.296,10.54
645.627,10.13
645.959,10.34
646.29,11.32
646.621,10.41
646.952,9.52
647.284,10.78
647.615,11.48
647.946,11.04
648.277,10.22
648.608,10.95
648.939,10.4
649.27,10.85
649.601,8.72
649.931,10.85
650.262,9.86
650.593,10.24
650.924,11.11
651.254,10.33
651.585,10.28
651.915,10.91
652.246,11.86
652.576,11.66
652.907,10.88
653.237,11.57
653.568,11.4
653.898,11.77
654.228,11.32
654.558,10.79
654.888,10.32
655.219,9.68
655.549,11.58
655.879,12.53
656.209,10.89
656.539,10.45
656.868,12.13
657.198,11.05
657.528,11.06
657.858,10.9
658.188,10.89
658.517,10.61
658.847,11.38
659.176,11.13
659.506,11.02
659.835,10.88
660.165,11.05
660.494,11.05
660.824,11.59
661.153,11.27
661.482,11.46
661.811,11.14
662.14,11.63
662.47,11.01
662.799,10.99
663.128,11.4
663.457,10.93
663.786,11.25
664.114,12.02
664.443,11.77
664.772,10.05
665.101,11.44
665.43,11.26
665.758,12.42
666.087,11.14
666.415,10.89
666.744,11.65
667.072,10.91
667.401,10.73
667.729,10.22
668.058,10.33
668.386,11.33
668.714,11.77
669.042,12.4
669.371,12.82
669.699,12.99
670.027,11.02
670.355,13.1
670.683,12.23
671.011,12.61
671.339,11.42
671.666,13.89
671.994,12.61
672.322,13.43
672.65,10.64
672.977,12.43
673.305,13.5
673.633,11.96
673.96,12.5
674.288,13.09
674.615,13.52
674.943,12.25
675.27,11.98
675.597,12.15
675.924,13.46
676.252,12.01
676.579,11.35
676.906,11.72
677.233,12.64
677.56,14.1
677.887,12.44
678.214,12.26
678.541,11.47
678.868,12.12
679.195,11.64
679.521,12.78
679.848,9.92
680.175,11.7
680.501,11.67
680.828,11.75
681.154,12.33
681.481,11.11
681.807,12.08
682.134,13
682.46,11.75
682.787,11.48
683.113,12.76
683.439,11.63
683.765,11.67
684.091,11.35
684.417,11.75
684.743,10.32
685.069,13.21
685.395,12.6
685.721,11.32
686.047,11.71
686.373,12.99
686.699,11.57
687.024,10.89
687.35,9.95
687.676,10.75
688.001,11.26
688.327,10.11
688.652,11.06
688.978,12.41
689.303,8.38
689.629,13.17
689.954,11.38
690.279,12.95
690.604,13.1
690.93,12.19
691.255,12.25
691.58,11.44
691.905,11.64
692.23,11.26
692.555,12.93
692.88,10.74
693.204,12.03
693.529,12.37
693.854,11.39
694.179,9.24
694.503,10.94
694.828,12.43
695.153,11.75
695.477,11.33
695.802,9.76
696.126,11.71
696.451,8.47
696.775,12.08
697.099,12.68
697.423,9.32
697.748,11.11
698.072,12.21
698.396,9.35
698.72,11.58
699.044,10.17
699.368,11.89
699.692,13.05
700.016,11.24
700.34,11.65
700.664,10.47
700.987,10.25
701.311,11.02
701.635,11.43
701.958,9.45
702.282,10.26
702.606,10.92
702.929,9.41
703.252,9.54
703.576,11.42
703.899,9.04
704.223,10.28
704.546,12.5
704.869,11.62
705.192,10.61
705.515,10.84
705.838,10.48
706.161,11.47
706.484,11.04
706.807,11.08
707.13,10.8
707.453,11.77
707.776,8.57
708.099,11.57
708.421,13.12
708.744,9.33
709.067,10.32
709.389,13.3
709.712,10.55
710.034,9.45
710.357,12.65
710.679,9.94
711.001,9.72
711.324,12.47
711.646,11.31
711.968,9.57
712.29,11.08
712.612,12.5
712.935,9.25
713.257,11.72
713.579,11.41
713.9,11.73
714.222,9.85
714.544,12.31
714.866,8.54
715.188,10.16
715.509,9.32
715.831,9.01
716.153,9.38
716.474,12.81
716.796,12.11
717.117,10.03
717.439,11.94
717.76,10.84
718.081,10.07
718.403,9.68
718.724,10.03
719.045,10.36
719.366,12.06
719.687,10.81
720.009,10.43
720.33,12.04
720.651,13.47
720.971,12.17
721.292,10.24
721.613,10.62
721.934,11.67
722.255,10.88
722.575,8.64
722.896,12.42
723.217,11.75
723.537,10.83
723.858,11.52
724.178,13.94
724.499,9.93
724.819,12.32
725.139,12.46
725.46,13.42
725.78,11.24
726.1,10.87
726.42,13.73
726.74,12.36
727.06,11.95
727.38,11.16
727.7,12.31
728.02,9.62
728.34,12.36
728.66,12.31
728.98,12.46
729.299,9.53
729.619,10.55
729.939,11.88
730.258,10.12
730.578,9.13
730.897,11.46
731.217,12.55
731.536,11.07
731.856,12.51
732.175,13.91
732.494,14.45
732.814,10.67
733.133,13.98
733.452,13.24
733.771,15.59
734.09,14.39
734.409,14.29
734.728,13.2
735.047,10.96
735.366,12.5
735.684,14.19
736.003,12.38
736.322,10.11
736.641,13.69
736.959,13.58
737.278,13.63
737.596,12.1
737.915,11.93
738.233,10.19
738.552,14.65
738.87,12.29
739.188,14.19
739.507,15.66
739.825,16.91
740.143,13.76
740.461,16.24
740.779,13.13
741.097,12.46
741.415,13.34
741.733,15.39
742.051,17.3
742.369,16.99
742.687,14.91
743.004,12.56
743.322,18.12
743.64,17.29
743.957,18.6
744.275,15.82
744.593,13.81
744.91,16.39
745.227,16.26
745.545,18.93
745.862,17.82
746.179,16.68
746.497,16.37
746.814,16.75
747.131,16.76
747.448,15.69
747.765,18.15
748.082,19.24
748.399,17.57
748.716,18.1
749.033,18.82
749.35,18.47
749.667,16.59
749.983,14.67
750.3,19.38
750.617,20.32
750.933,20.41
751.25,18.41
751.566,17.08
751.883,19.72
752.199,18.15
752.516,20.11
752.832,20.38
753.148,21.89
753.464,21.09
753.781,19.91
754.097,22.55
754.413,21.69
754.729,18.28
755.045,23.02
755.361,22.23
755.677,23.57
755.992,24.44
756.308,23.67
756.624,24.67
756.94,23.82
757.255,23.87
757.571,25.37
757.887,24.35
758.202,24.9
758.518,24.57
758.833,25.33
759.148,25.55
759.464,25.68
759.779,27.25
760.094,28.58
760.41,25.83
760.725,24.04
761.04,27.21
761.355,27.73
761.67,27.01
761.985,27.77
762.3,25.29
762.615,29.02
762.93,26.6
763.244,27.46
763.559,28.69
763.874,28.97
764.188,30.28
764.503,26.84
764.818,30.27
765.132,30.14
765.447,27.4
765.761,28.83
766.075,33.2
766.39,30.75
766.704,30.52
767.018,28.88
767.332,29.32
767.646,31.08
767.961,30.92
768.275,31.46
768.589,30.65
768.903,28.52
769.216,29.84
769.53,34.13
769.844,33.67
770.158,32.27
770.472,34
770.785,30.3
771.099,30.71
771.413,28.59
771.726,33.83
772.04,33.82
772.353,32.51
772.666,31.57
772.98,33.35
773.293,36.21
773.606,34.14
773.919,38.41
774.233,36.78
774.546,33.67
774.859,35.96
775.172,35.22
775.485,35.44
775.798,32.48
776.111,35.98
776.423,31.23
776.736,33.74
777.049,40.15
777.362,33.76
777.674,39.33
777.987,35.74
778.299,35.06
778.612,33.82
778.924,35.09
779.237,31.1
779.549,35.32
779.862,36.53
780.174,36.91
780.486,36.99
780.798,36.14
781.11,34
781.422,38.49
781.735,39.76
782.046,32.51
782.358,31.15
782.67,33.14
782.982,35.51
783.294,33.36
783.606,39.29
783.917,36.73
784.229,36.1
784.541,40.28
784.852,35.83
785.164,35.21
785.475,35.35
785.787,36.67
786.098,40.16
786.41,37.53
786.721,35.02
787.032,41.25
787.343,34.25
787.654,33.36
787.966,34.51
788.277,37.44
788.588,36.94
788.899,42.29
789.209,40.49
789.52,39.59
789.831,36.67
790.142,36.47
790.453,41.57
790.763,37.33
791.074,40.64
791.385,41.52
791.695,38.92
792.006,38.02
792.316,32.62
792.626,37.63
792.937,36.83
793.247,38.2
793.557,37.83
793.868,35.8
794.178,32.53
794.488,33.93
794.798,39.87
795.108,31.81
795.418,35.22
795.728,34.27
796.038,34.78
796.348,34.55
796.657,41.21
796.967,38.3
797.277,36.47
797.587,37.24
797.896,36.32
798.206,38.2
798.515,35.69
798.825,36.79
799.134,36.62
799.444,28.23
799.753,39.2
800.062,34.49
800.371,37.18
800.681,35.22
800.99,45.05
801.299,40.43
801.608,35.96
801.917,33.37
802.226,37
802.535,42.76
802.844,38.09
803.152,46.29
803.461,38.22
803.77,41.35
804.078,35.75
804.387,34.41
804.696,41.16
805.004,38.19
805.313,38.09
805.621,44.88
805.93,31.56
806.238,42.41
806.546,35.6
806.854,32.6
807.163,38.69
807.471,46.4
807.779,38.32
808.087,37.72
808.395,43.43
808.703,35.41
809.011,36.31
809.319,37.7
809.626,34.82
809.934,37.68
810.242,38.09
810.55,36.19
810.857,40.28
811.165,35.6
811.472,36.95
811.78,35.91
812.087,35.83
812.395,38.61
812.702,43.12
813.009,35.76
813.317,40.75
813.624,40.56
813.931,39.56
814.238,47.37
814.545,33.39
814.852,40.65
815.159,43.12
815.466,45.79
815.773,42.73
816.08,34.78
816.387,44.22
816.693,35.19
817,39.19
817.307,35.27
817.613,45.4
817.92,31.87
818.226,37.16
818.533,52.47
818.839,44.19
819.146,41.16
819.452,37.38
819.758,45
820.064,36.42
820.371,36.13
820.677,46.35
820.983,38.16
821.289,41.49
821.595,38.4
821.901,30.82
822.207,40.43
822.512,47.46
822.818,33.39
823.124,38.16
823.43,36
823.735,42.01
824.041,37.16
824.347,35.66
824.652,32.82
824.957,38.97
825.263,43.63
825.568,42.93
825.874,38.67
826.179,46.25
826.484,26.98
826.789,34.69
827.094,28.62
827.399,42.93
827.705,35.66
828.01,34.87
828.314,28.91
828.619,43.63
828.924,40.08
829.229,46.78
829.534,38.08
829.838,36.82
830.143,36.44
830.448,41.76
830.752,39.71
831.057,33.4
831.361,40.91
831.666,46.39
831.97,47.55
832.274,29.69
832.579,35.55
832.883,41.15
833.187,43.85
833.491,22.69
833.795,41.15
834.099,41.27
834.403,32.07
834.707,50.14
835.011,34.18
835.315,24.5
835.619,34.12
835.923,34.12
836.226,34.08
836.53,40.09
836.834,43.29
837.137,31.67
837.441,35.64
837.744,34.18
838.048,43.29
838.351,25.06
838.654,23.97
838.958,45.36
839.261,34.08
839.564,34.12
839.867,34.18
840.17,45.36
840.473,49.01
840.776,26.26
841.079,33.44
841.382,33.43
841.685,19.1
841.988,29.03
842.291,37.95
842.593,45.36
842.896,44.58
843.199,31.32
843.501,31.79
843.804,47.21
844.106,32.53
844.409,50.15
844.711,45.13
845.013,50.15
845.316,36
845.618,46.47
845.92,38.08
846.222,34.95
846.524,10.04
846.826,32.27
847.128,38.36
847.43,27.11
847.732,18.24
848.034,29.82
848.336,39.53
848.638,25.09
848.939,41.8
849.241,32.64
849.543,44.63
849.844,33.46
850.146,37.26
850.447,42.09
850.749,50.21
851.05,35.86
851.351,33.46
851.653,36.8
851.954,33.45
852.255,26.77
852.556,41.54
852.857,37.63
853.158,39.53
853.459,45.32
853.76,27.69
854.061,50.19
854.362,41.54
854.663,48.21
854.964,38.63
855.264,74.27
855.565,21.84
855.866,38.85
856.166,30.41
856.467,33.45
856.767,43.9
857.068,51.8
857.368,42.49
857.668,40.13
857.969,45.86
858.269,42.23
858.569,27.86
858.869,15.45
859.169,45.61
859.469,48.8
859.769,38.85
860.069,29.51
860.369,23.61
860.669,41.31
860.969,48.46
861.269,46.35
861.568,42.99
861.868,52.43
862.168,23.18
862.467,22.31
862.767,60.27
863.066,25.12
863.366,29.3
863.665,43.69
863.964,30.58
864.264,46.05
864.563,22.31
864.862,13.11
865.161,37.19
865.46,4.57
865.759,30.58
866.058,44.72
866.357,30.58
866.656,40.18
866.955,38.3
867.254,10.59
867.552,43.09
867.851,28.13
868.15,33.49
868.448,25.17
868.747,42.35
869.045,26.47
869.344,12.56
869.642,37.67
869.941,25.14
870.239,17.76
870.537,31.76
870.836,39.13
871.134,10.59
871.432,50.31
871.73,44.72
872.028,16.77
872.326,29.3
872.624,12.59
872.922,9.57
873.22,11.84
873.517,0
873.815,-5.92
874.113,30.17
874.411,28.72
874.708,21.84
875.006,50.21
875.303,25.14
875.601,30.17
875.898,25.17
876.195,62.23
876.493,18.88
876.79,21.6
877.087,31.47
877.384,36.55
877.682,50.31
877.979,9.18
878.276,38.79
878.573,67.5
878.87,54.31
879.166,-27.55
879.463,25.17