wavelength,reflectance
177.272,-560
177.658,25
178.044,430
178.43,25
178.816,42.31
179.203,-94.12
179.589,134.29
179.975,146.15
180.361,25
180.747,-39.29
181.133,15.22
181.519,1600
181.904,1600
182.29,185.71
182.676,111.54
183.062,84.21
183.447,58.9
183.833,7.69
184.219,-30.19
184.604,178.95
184.99,160
185.375,25
185.761,-41.18
186.146,36.84
186.531,-45.71
186.917,11.22
187.302,-40.32
187.687,-20
188.073,-11.29
188.458,-47.17
188.843,-200
189.228,91.89
189.613,6100
189.998,-54.84
190.383,-94.12
190.768,4300
191.153,57.14
191.538,-13.21
191.923,4.55
192.307,-96.15
192.692,321.05
193.077,-1212.5
193.461,273.68
193.846,-40.32
194.231,-54.84
194.615,-411.76
195,-36.36
195.384,178.95
195.769,-96.15
196.153,-147.06
196.537,-31.25
196.922,-61.54
197.306,-290
197.69,57.14
198.074,-61.54
198.458,75.51
198.843,-13.21
199.227,-312.5
199.611,52.81
199.995,28.17
200.379,-26.92
200.763,-537.5
201.146,-41.18
201.53,13.75
201.914,-8.75
202.298,-47.17
202.681,31.43
203.065,-650
203.449,-26.92
203.832,-97.14
204.216,-200
204.599,-71.43
204.983,2.04
205.366,-42.5
205.75,6100
206.133,-8.75
206.516,700
206.9,-252.94
207.283,-118.18
207.666,13.75
208.049,3.23
208.432,226.32
208.815,170.59
209.198,-147.06
209.581,-6.54
209.964,53.52
210.347,-30.19
210.73,-77.27
211.113,-225.71
211.496,-15.91
211.879,-11.29
212.261,-58.43
212.644,22.47
213.027,-65
213.409,29.59
213.792,3.77
214.174,-252.94
214.557,226.32
214.939,-6.54
215.322,-269.23
215.704,-200
216.086,-31.25
216.469,-7.14
216.851,-15.91
217.233,3.77
217.615,-8.75
217.997,-98.39
218.379,-200
218.761,-25.81
219.143,-73.24
219.525,-13.21
219.907,37.74
220.289,22.47
220.671,-6.03
221.053,5.71
221.435,20.41
221.816,-31.25
222.198,-96.15
222.58,-28.09
222.961,-54.84
223.343,12.36
223.724,10.28
224.106,2.5
224.487,18.69
224.869,-8.75
225.25,2.04
225.631,-28.09
226.013,52.34
226.394,-17.98
226.775,-7.14
227.156,-5.22
227.537,-20
227.919,-43.88
228.3,-34.69
228.681,-78.65
229.062,-32.3
229.442,-20
229.823,-17.48
230.204,-18.66
230.585,-8.12
230.966,-18.99
231.347,-3.26
231.727,18.01
232.108,12.45
232.488,14.13
232.869,10.78
233.25,-2.6
233.63,-2.79
234.01,9.8
234.391,6.56
234.771,3.14
235.152,9.24
235.532,-7.33
235.912,12.99
236.292,2.85
236.672,0.48
237.053,2.85
237.433,8.46
237.813,20.07
238.193,5.12
238.573,4.36
238.953,0.34
239.333,9.15
239.712,5.22
240.092,2.68
240.472,7.95
240.852,8.31
241.231,3.29
241.611,3.29
241.991,8.24
242.37,7.28
242.75,10.67
243.129,6.23
243.509,6.28
243.888,10.09
244.267,8.61
244.647,9.06
245.026,13.31
245.405,12.05
245.784,7.74
246.164,6.81
246.543,9.68
246.922,11.12
247.301,7.6
247.68,10.54
248.059,16.14
248.438,14.2
248.817,11.76
249.195,10.81
249.574,12.55
249.953,9.7
250.332,9.93
250.71,11.96
251.089,10.89
251.468,12.29
251.846,11.63
252.225,15.5
252.603,13.32
252.982,12.41
253.36,13.2
253.738,13.86
254.117,13.77
254.495,12.58
254.873,14.04
255.251,11.33
255.63,13.94
256.008,11.37
256.386,12.5
256.764,13.43
257.142,12.5
257.52,14.55
257.898,13.78
258.276,13.19
258.653,11.76
259.031,14.6
259.409,11.32
259.787,11.66
260.164,11.5
260.542,13.13
260.92,14.86
261.297,16.87
261.675,13.7
262.052,10.74
262.43,13.49
262.807,12.63
263.184,13.61
263.562,13.34
263.939,12.98
264.316,14.78
264.693,14.38
265.07,12.63
265.448,9.79
265.825,14.2
266.202,12.59
266.579,13.2
266.956,13.59
267.333,12.56
267.709,14.39
268.086,12.02
268.463,13.16
268.84,14.71
269.216,14.53
269.593,15.14
269.97,11.53
270.346,13.17
270.723,13.51
271.099,12.62
271.476,15.17
271.852,12.26
272.229,11.6
272.605,12.24
272.981,13.29
273.358,12.04
273.734,13.31
274.11,12.5
274.486,13.91
274.862,11.38
275.238,11.56
275.614,12.07
275.99,12.46
276.366,12.63
276.742,13.53
277.118,10.91
277.494,12.72
277.87,10.71
278.245,10.48
278.621,11.23
278.997,10.06
279.372,12.14
279.748,13.48
280.123,12.63
280.499,11.98
280.874,11.09
281.25,9.98
281.625,11.24
282,12.12
282.376,13.48
282.751,10.8
283.126,10.89
283.501,12.21
283.876,11.23
284.252,11.81
284.627,11.34
285.002,8.61
285.377,10.92
285.751,10.16
286.126,10.64
286.501,12.37
286.876,9.1
287.251,10.29
287.625,9.46
288,10.71
288.375,10.45
288.749,11.55
289.124,9.2
289.498,9.87
289.873,10.29
290.247,9.7
290.622,8.77
290.996,10.62
291.37,10.53
291.745,9.88
292.119,10.79
292.493,10.27
292.867,12.79
293.241,12.89
293.616,8.72
293.99,11.87
294.364,12.5
294.737,10.79
295.111,9.96
295.485,10.8
295.859,11.2
296.233,9.82
296.607,11.05
296.98,11.75
297.354,10.88
297.728,12.18
298.101,10.67
298.475,9.68
298.848,13.68
299.222,12.63
299.595,11.11
299.968,10.24
300.342,10.56
300.715,12.56
301.088,8.14
301.462,10.12
301.835,10.12
302.208,11.14
302.581,11.15
302.954,11.81
303.327,10.93
303.7,11.39
304.073,13.26
304.446,11.38
304.819,9.2
305.192,12.19
305.564,10.99
305.937,10.09
306.31,10.66
306.682,11.46
307.055,10.32
307.428,8.31
307.8,12.73
308.173,10.94
308.545,12.33
308.917,9.35
309.29,10.9
309.662,10.55
310.034,10.04
310.407,11.38
310.779,11.14
311.151,11.7
311.523,11.69
311.895,11.08
312.267,10.99
312.639,10.85
313.011,9.31
313.383,8.81
313.755,9.31
314.127,9.65
314.498,10.18
314.87,11.43
315.242,8
315.614,9.92
315.985,7.93
316.357,10.01
316.728,11.73
317.1,10.68
317.471,10.63
317.843,7.92
318.214,6.75
318.585,11.33
318.957,11.05
319.328,8.61
319.699,10.53
320.07,11.7
320.441,9.73
320.813,7.86
321.184,8.93
321.555,11.45
321.926,8.11
322.297,11.52
322.667,9.25
323.038,9.68
323.409,8.91
323.78,11.52
324.151,8.76
324.521,7.97
324.892,10.12
325.262,9.68
325.633,10.17
326.004,8.03
326.374,9.77
326.744,12.05
327.115,7.79
327.485,6.95
327.855,7.11
328.226,9.59
328.596,10.48
328.966,8.42
329.336,9.08
329.706,8.51
330.076,8.68
330.447,10.33
330.816,7.86
331.186,10.59
331.556,11.33
331.926,11.24
332.296,8.6
332.666,8.44
333.036,7.86
333.405,9.43
333.775,9.23
334.144,8.59
334.514,9.33
334.884,9.18
335.253,8.72
335.623,10.4
335.992,9.31
336.361,9.6
336.731,7.71
337.1,8.17
337.469,8.42
337.838,8.69
338.208,7.07
338.577,8.42
338.946,9.42
339.315,10.04
339.684,8.51
340.053,9.6
340.422,9.55
340.79,8.68
341.159,9.57
341.528,8.13
341.897,9.23
342.266,8.08
342.634,9.18
343.003,10.49
343.371,7.67
343.74,9.5
344.108,8.02
344.477,7.99
344.845,8.61
345.214,9.03
345.582,7.01
345.95,9.66
346.319,10.12
346.687,8.48
347.055,8.37
347.423,8.22
347.791,10.33
348.159,8.48
348.527,8.12
348.895,9.57
349.263,9.39
349.631,9.08
349.999,8.55
350.367,6.73
350.734,8.86
351.102,5.72
351.47,8.04
351.837,7.07
352.205,8.15
352.573,8.15
352.94,10.87
353.308,11.37
353.675,8.28
354.042,7.53
354.41,7.99
354.777,6.73
355.144,7.67
355.511,7.45
355.879,8.9
356.246,7.99
356.613,7.99
356.98,8.42
357.347,4.94
357.714,8.4
358.081,9.79
358.448,8.07
358.815,8.42
359.181,8.42
359.548,6.64
359.915,7.92
360.282,8.73
360.648,9.71
361.015,10.04
361.381,9.3
361.748,9.38
362.114,7.88
362.481,9.62
362.847,9.28
363.214,10.56
363.58,9.93
363.946,7.76
364.312,9.4
364.678,9.93
365.045,9.35
365.411,8.91
365.777,9.85
366.143,10.5
366.509,8.76
366.875,8.1
367.241,7.89
367.606,8.03
367.972,10.67
368.338,8.93
368.704,9.85
369.069,10.27
369.435,9.51
369.801,9.77
370.166,8.52
370.532,8.28
370.897,9.57
371.263,9.03
371.628,9.96
371.993,9.35
372.359,9.31
372.724,9.27
373.089,8.35
373.454,8.33
373.82,8.03
374.185,9.13
374.55,8.16
374.915,9.37
375.28,9.33
375.645,9.88
376.01,9.96
376.374,13.12
376.739,10.75
377.104,10.32
377.469,9.3
377.833,10.89
378.198,9.45
378.563,9.96
378.927,8.7
379.292,8.73
379.656,8.43
380.021,9.1
380.385,8.03
380.749,8.72
381.114,9.15
381.478,8.91
381.842,10.9
382.206,10.48
382.571,10.1
382.935,9.84
383.299,10.64
383.663,10.01
384.027,9.1
384.391,10.68
384.755,10.64
385.118,8.89
385.482,9.98
385.846,9.63
386.21,11.04
386.573,10.08
386.937,10.57
387.301,9.84
387.664,11.83
388.028,7.43
388.391,12.36
388.755,8.83
389.118,11.96
389.481,10.09
389.845,10.85
390.208,10.21
390.571,10.63
390.934,9.22
391.298,10.14
391.661,10.97
392.024,10.61
392.387,13.71
392.75,11.79
393.113,12.84
393.476,11.35
393.838,10.43
394.201,11.09
394.564,12.06
394.927,12.89
395.289,10.96
395.652,11.07
396.015,11.94
396.377,10.75
396.74,12.29
397.102,11.63
397.465,12.65
397.827,12.19
398.189,10.89
398.552,12.02
398.914,11.85
399.276,13.1
399.638,12.15
400,11.41
400.363,10.87
400.725,10.43
401.087,12.52
401.449,13.49
401.81,12.52
402.172,13.35
402.534,13.61
402.896,11.53
403.258,12.77
403.619,11.98
403.981,12.89
404.343,13.23
404.704,13.07
405.066,12.22
405.427,12.05
405.789,12.42
406.15,12.73
406.512,13.05
406.873,13.03
407.234,12.89
407.596,14.25
407.957,12.26
408.318,13.79
408.679,12.38
409.04,12.85
409.401,12.89
409.762,13.09
410.123,14.44
410.484,13.44
410.845,14.77
411.206,13.87
411.567,14.83
411.927,14.19
412.288,12.47
412.649,13.69
413.009,12.33
413.37,14.89
413.731,13.47
414.091,13.97
414.452,15.37
414.812,13.93
415.172,14.08
415.533,12.36
415.893,14.14
416.253,15.23
416.613,14.25
416.974,13.84
417.334,13.24
417.694,14.92
418.054,14.72
418.414,15.25
418.774,12.81
419.134,13.76
419.494,15.09
419.853,14.56
420.213,15.12
420.573,13.73
420.933,16.04
421.292,13.95
421.652,14.42
422.011,13.81
422.371,14.92
422.73,15.31
423.09,15.53
423.449,14.22
423.809,15.76
424.168,15.1
424.527,15.25
424.887,14.47
425.246,16.5
425.605,15.11
425.964,15.09
426.323,14.28
426.682,14.02
427.041,15.4
427.4,14.05
427.759,15.8
428.118,16
428.477,13.99
428.835,17.02
429.194,14.48
429.553,14.7
429.911,14.22
430.27,16.68
430.629,16.11
430.987,15.71
431.346,15.63
431.704,16.83
432.062,16.19
432.421,15.54
432.779,14.01
433.137,15.62
433.496,16.44
433.854,15.45
434.212,15.9
434.57,15.03
434.928,16.29
435.286,15.12
435.644,16.56
436.002,17.02
436.36,17.41
436.718,16.53
437.075,15.71
437.433,16.13
437.791,14.71
438.149,15.32
438.506,17.21
438.864,17.15
439.221,16.94
439.579,16.32
439.936,16.32
440.294,17.22
440.651,16.37
441.009,15.73
441.366,16.49
441.723,17.18
442.08,16.89
442.437,16.71
442.795,16.21
443.152,16.04
443.509,17.36
443.866,17.19
444.223,16.42
444.58,17.28
444.936,18.07
445.293,15.94
445.65,17.13
446.007,16.99
446.363,15.95
446.72,15.9
447.077,16.6
447.433,17.51
447.79,17.43
448.146,15.54
448.503,16.79
448.859,16.43
449.215,16.28
449.572,16.95
449.928,17.97
450.284,16.65
450.641,15.96
450.997,17.2
451.353,16.65
451.709,16.23
452.065,16.85
452.421,16.74
452.777,16.04
453.133,17.64
453.488,17.34
453.844,17.47
454.2,16.68
454.556,16.81
454.911,17.45
455.267,15.62
455.623,15.36
455.978,15.49
456.334,17.47
456.689,16.19
457.045,18.41
457.4,17.69
457.755,15.37
458.111,17.88
458.466,17.85
458.821,18.03
459.176,18.04
459.531,15.99
459.886,18.37
460.242,16.84
460.597,16.26
460.951,16.46
461.306,17.34
461.661,18.78
462.016,19.19
462.371,16.83
462.726,16.34
463.08,15.93
463.435,17.65
463.79,17.26
464.144,18.12
464.499,19.37
464.853,14.06
465.208,16.82
465.562,18.21
465.916,17.32
466.271,17.31
466.625,16.3
466.979,17.74
467.333,15.75
467.688,17.25
468.042,18.91
468.396,17.54
468.75,17.38
469.104,16.56
469.458,18.3
469.811,18.6
470.165,18.18
470.519,17.84
470.873,19.04
471.227,16.82
471.58,18.4
471.934,16.5
472.287,17.82
472.641,17.55
472.995,19
473.348,16.96
473.701,17.79
474.055,17.23
474.408,18.43
474.761,17.33
475.115,18.19
475.468,19.61
475.821,18.23
476.174,18.46
476.527,17.73
476.88,18.96
477.233,18.07
477.586,19.86
477.939,18.19
478.292,18.93
478.645,19.64
478.998,15.94
479.35,19.79
479.703,18.14
480.056,17.68
480.408,19.17
480.761,19.39
481.113,18.01
481.466,19.19
481.818,18
482.171,17.74
482.523,17.9
482.875,20.5
483.228,19.38
483.58,19.61
483.932,18.46
484.284,19.15
484.636,20.01
484.988,17.61
485.34,18.29
485.692,18.03
486.044,18.73
486.396,17.98
486.748,18.29
487.1,17.97
487.451,18.53
487.803,18.05
488.155,20.09
488.506,19.15
488.858,18.09
489.209,18.87
489.561,18.57
489.912,17.68
490.264,17.72
490.615,17.59
490.966,18.1
491.318,18.19
491.669,17.76
492.02,18.84
492.371,17.97
492.722,17.53
493.073,17.04
493.424,18.04
493.775,18.38
494.126,18.22
494.477,18.02
494.828,19.48
495.179,19.58
495.53,17.7
495.88,19.1
496.231,17.71
496.582,18.19
496.932,18.67
497.283,18.92
497.633,18.76
497.984,16.87
498.334,17.95
498.684,18.54
499.035,19.59
499.385,18.16
499.735,17.58
500.086,18.66
500.436,18.61
500.786,17.49
501.136,18.49
501.486,18.39
501.836,18.14
502.186,18.54
502.536,18.07
502.886,19.14
503.235,17.45
503.585,18.7
503.935,19.58
504.285,18.91
504.634,17.84
504.984,18.1
505.333,17.39
505.683,18.14
506.032,19.34
506.382,19.26
506.731,19.21
507.08,16.38
507.43,17.03
507.779,18.15
508.128,18.02
508.477,17.6
508.826,17.91
509.176,18.39
509.525,18.35
509.874,18.34
510.222,19.16
510.571,19.03
510.92,17.99
511.269,18.31
511.618,17.72
511.967,18.7
512.315,18.39
512.664,17.98
513.012,18.25
513.361,17.53
513.71,18.61
514.058,18.36
514.406,18.92
514.755,18.61
515.103,17.42
515.451,17.37
515.8,16.95
516.148,18.22
516.496,17.41
516.844,18.24
517.192,17.63
517.54,17.29
517.888,19.7
518.236,17.87
518.584,17.02
518.932,17.84
519.28,17.22
519.628,16.1
519.975,18.69
520.323,16.91
520.671,17.32
521.018,17.43
521.366,18.74
521.713,16.91
522.061,18.03
522.408,16.86
522.756,17.33
523.103,18.93
523.45,18.64
523.798,18.69
524.145,17.76
524.492,17.59
524.839,18.37
525.186,18.82
525.533,17.47
525.88,17.17
526.227,19.29
526.574,18.18
526.921,16.62
527.268,17.7
527.615,18.85
527.961,18.27
528.308,18.47
528.655,17.86
529.001,16.71
529.348,18.01
529.694,17.91
530.041,17.22
530.387,17.35
530.734,17.4
531.08,16.11
531.426,17.32
531.773,15.64
532.119,17.05
532.465,17.71
532.811,16.59
533.157,17.1
533.503,15.33
533.849,16.59
534.195,16.65
534.541,17.68
534.887,17.41
535.233,17.14
535.579,16.15
535.924,16.19
536.27,17.5
536.616,19.03
536.961,15.7
537.307,17
537.652,17.58
537.998,18.24
538.343,16.4
538.689,17.75
539.034,16.65
539.379,16.77
539.725,16.62
540.07,15.56
540.415,16.57
540.76,16.08
541.105,16.26
541.45,15.36
541.795,17.42
542.14,15.7
542.485,16.57
542.83,15.99
543.175,17.01
543.519,14.7
543.864,18.28
544.209,15.07
544.554,14.85
544.898,15.33
545.243,16.27
545.587,16.11
545.932,15.88
546.276,16.38
546.621,17.14
546.965,15.44
547.309,15.88
547.653,15.72
547.998,16.04
548.342,14.46
548.686,16.62
549.03,15.69
549.374,15.15
549.718,15.46
550.062,16.36
550.406,15.91
550.75,15.8
551.094,15.68
551.437,16.1
551.781,15.08
552.125,14.96
552.468,14.6
552.812,15.92
553.156,14.84
553.499,14.63
553.843,15.01
554.186,16.17
554.529,16.05
554.873,15.64
555.216,15.93
555.559,15.49
555.902,15.54
556.246,14.69
556.589,14.82
556.932,14.56
557.275,16.35
557.618,15.12
557.961,13.99
558.304,15.79
558.646,14.93
558.989,16.26
559.332,14.99
559.675,13.98
560.017,14.25
560.36,14.71
560.703,14.13
561.045,13.44
561.388,15.18
561.73,14.62
562.073,13.94
562.415,15.21
562.757,14.23
563.1,15.04
563.442,15.42
563.784,14.16
564.126,15.31
564.468,15.11
564.81,15.45
565.152,14.33
565.494,13.78
565.836,14.87
566.178,14.97
566.52,14.14
566.862,15.5
567.204,14.47
567.545,15.09
567.887,14.19
568.229,13.23
568.57,14.46
568.912,14.68
569.253,14.3
569.595,14.91
569.936,14.95
570.277,13.91
570.619,14.64
570.96,13.16
571.301,14.38
571.642,13.71
571.984,14.23
572.325,15.16
572.666,13.91
573.007,15.09
573.348,14.11
573.689,14.21
574.03,15.21
574.37,14.11
574.711,14.28
575.052,15.15
575.393,14.51
575.733,13.97
576.074,13.83
576.414,13.38
576.755,13.9
577.095,13.94
577.436,14.24
577.776,13.82
578.117,14.74
578.457,14.63
578.797,13.35
579.137,14.01
579.478,13.27
579.818,13.64
580.158,13.51
580.498,13.75
580.838,13.62
581.178,12.26
581.518,13.87
581.858,14.84
582.197,12.77
582.537,12.99
582.877,12.46
583.217,13.1
583.556,13.52
583.896,13.16
584.235,13.4
584.575,13.56
584.914,13.35
585.254,13.26
585.593,13.54
585.933,13.85
586.272,12.98
586.611,12.94
586.95,12.42
587.289,13.3
587.629,13.18
587.968,13.54
588.307,12.93
588.646,12.61
588.985,13
589.323,12.61
589.662,13.42
590.001,13.39
590.34,12.79
590.679,13.09
591.017,12.58
591.356,12.15
591.695,13.11
592.033,12.07
592.372,13.61
592.71,12.27
593.048,12.4
593.387,11.89
593.725,12.6
594.063,12.57
594.402,12.48
594.74,12.54
595.078,13.06
595.416,12.66
595.754,12.98
596.092,12.8
596.43,12.5
596.768,12.43
597.106,12.9
597.444,11.62
597.781,12.37
598.119,12.3
598.457,12.69
598.795,12.13
599.132,11.42
599.47,11.65
599.807,12.69
600.145,12.8
600.482,11.56
600.82,12.07
601.157,12.3
601.494,10.62
601.831,12.49
602.169,11.59
602.506,11.84
602.843,11.69
603.18,12
603.517,12.04
603.854,11.26
604.191,11.2
604.528,12.25
604.865,11.8
605.202,12.54
605.538,11.86
605.875,11.67
606.212,11.64
606.548,12.01
606.885,11.48
607.222,11.53
607.558,11.52
607.895,11.95
608.231,11.07
608.567,10.44
608.904,11.82
609.24,11.33
609.576,12.06
609.912,11.87
610.248,11.75
610.585,12.26
610.921,11.77
611.257,10.89
611.593,12.04
611.929,10.82
612.264,12.01
612.6,11.18
612.936,11.46
613.272,10.8
613.608,11.68
613.943,11.75
614.279,11.3
614.614,11.69
614.95,10.49
615.285,10.95
615.621,11.1
615.956,11.17
616.292,12.13
616.627,11.2
616.962,11.19
617.297,10.8
617.632,11.56
617.968,11.46
618.303,11.23
618.638,9.58
618.973,10.64
619.308,11.03
619.643,10.99
619.977,11.26
620.312,9.98
620.647,11.26
620.982,10.37
621.316,11.11
621.651,11.37
621.986,10.16
622.32,11.08
622.655,11.19
622.989,11.72
623.324,10.83
623.658,11.57
623.992,11.83
624.326,11.81
624.661,11.21
624.995,10.92
625.329,12.72
625.663,10.9
625.997,10.13
626.331,10.32
626.665,11.29
626.999,11.34
627.333,11.71
627.667,11.03
628.001,11.36
628.334,10.98
628.668,12
629.002,11.03
629.335,12.28
629.669,11.22
630.002,11.65
630.336,10.17
630.669,13.04
631.003,11.31
631.336,10.56
631.669,10.88
632.003,10.62
632.336,11.17
632.669,11.17
633.002,9.89
633.335,9.85
633.668,10.73
634.001,11.54
634.334,12.41
634.667,11.25
635,10.47
635.333,11.09
635.665,11.28
635.998,11.55
636.331,11.58
636.663,10.4
636.996,10.38
637.328,12.26
637.661,11.84
637.993,11.54
638.326,10.85
638.658,11.03
638.99,10.32
639.323,10.98
639.655,10.22
639.987,8.92
640.319,9.89
640.651,11.9
640.983,10.35
641.315,10.8
641.647,10.07
641.979,11.48
642.311,10.57
642.643,11.52
642.975,11.35
643.306,10.64
643.638,11.23
643.97,12.12
644.301,9.79
644.633,7.91
644.964,11.54
645.296,11.94
645.627,11.06
645.959,9.94
646.29,10.46
646.621,12.27
646.952,10.5
647.284,12
647.615,10.12
647.946,12.5
648.277,9.08
648.608,12.22
648.939,11.14
649.27,10.9
649.601,9.26
649.931,10.18
650.262,8.97
650.593,10.52
650.924,10.93
651.254,11.09
651.585,10.33
651.915,10.51
652.246,10.98
652.576,10.14
652.907,10.01
653.237,10.94
653.568,10.98
653.898,10.69
654.228,11.37
654.558,11.51
654.888,11.06
655.219,11.57
655.549,10.47
655.879,12.35
656.209,10.27
656.539,11.35
656.868,11.69
657.198,11.18
657.528,11.23
657.858,11.73
658.188,11.68
658.517,11.29
658.847,11.62
659.176,11.39
659.506,11.7
659.835,11.35
660.165,11.63
660.494,11.47
660.824,12.38
661.153,11.32
661.482,11.1
661.811,11.21
662.14,11.03
662.47,10.66
662.799,11.01
663.128,11.14
663.457,11.68
663.786,10.49
664.114,12.17
664.443,11.94
664.772,11.58
665.101,11.48
665.43,10.74
665.758,11.84
666.087,11.89
666.415,10.7
666.744,12.21
667.072,11.5
667.401,12.13
667.729,12.16
668.058,9.57
668.386,13.33
668.714,11.83
669.042,10.49
669.371,9.81
669.699,10.84
670.027,8.88
670.355,11.49
670.683,12.02
671.011,9.1
671.339,9.81
671.666,14.8
671.994,11.85
672.322,12.39
672.65,11.85
672.977,11.65
673.305,10.91
673.633,13.38
673.96,11.75
674.288,12.89
674.615,13.58
674.943,11.79
675.27,10.74
675.597,12.72
675.924,12.75
676.252,11.29
676.579,12.99
676.906,11.78
677.233,12.43
677.56,12.07
677.887,12.5
678.214,10.93
678.541,11
678.868,11.62
679.195,10.59
679.521,10.34
679.848,11.96
680.175,9.54
680.501,10.62
680.828,8.53
681.154,11.3
681.481,13.29
681.807,11.87
682.134,11.47
682.46,14
682.787,11.27
683.113,12.31
683.439,12.72
683.765,12.53
684.091,10.35
684.417,13.45
684.743,10.38
685.069,13.27
685.395,12.14
685.721,11.9
686.047,10.43
686.373,13.31
686.699,12.14
687.024,11.45
687.35,12.31
687.676,11.81
688.001,10.29
688.327,11.72
688.652,11.87
688.978,11.96
689.303,10.4
689.629,12.5
689.954,12.16
690.279,13.97
690.604,12.65
690.93,12.99
691.255,12.05
691.58,13.36
691.905,12.76
692.23,10.79
692.555,12.2
692.88,12.5
693.204,11.27
693.529,12.69
693.854,12.53
694.179,11.48
694.503,11.26
694.828,11.94
695.153,13.73
695.477,11.94
695.802,12.53
696.126,12.03
696.451,10.99
696.775,10.04
697.099,14.72
697.423,12.94
697.748,14.03
698.072,12.28
698.396,11.11
698.72,14.02
699.044,13.34
699.368,13.4
699.692,14.85
700.016,13.83
700.34,13.7
700.664,13.15
700.987,10.59
701.311,12.53
701.635,13.21
701.958,13.4
702.282,15.17
702.606,14.82
702.929,12.42
703.252,13.61
703.576,13.89
703.899,13.47
704.223,11.6
704.546,15.62
704.869,14.45
705.192,12.19
705.515,11.53
705.838,12.46
706.161,11.54
706.484,11.44
706.807,13.76
707.13,14.68
707.453,14.46
707.776,13.73
708.099,11.01
708.421,13.52
708.744,11.97
709.067,14.45
709.389,12.1
709.712,14.23
710.034,11.66
710.357,15.3
710.679,14.53
711.001,13.5
711.324,15.65
711.646,13.69
711.968,12.82
712.29,14.56
712.612,16.26
712.935,14.23
713.257,13.21
713.579,16.44
713.9,15.03
714.222,13.61
714.544,14.84
714.866,14.4
715.188,12.14
715.509,14.36
715.831,15.29
716.153,14.45
716.474,14.71
716.796,15.04
717.117,12.53
717.439,15.3
717.76,12.46
718.081,14.23
718.403,12.98
718.724,14.49
719.045,14.32
719.366,14.08
719.687,15.28
720.009,15.39
720.33,15.8
720.651,17.25
720.971,12.24
721.292,12.37
721.613,13.78
721.934,14.22
722.255,13.77
722.575,15.55
722.896,14.27
723.217,15.74
723.537,13.52
723.858,13.03
724.178,15.41
724.499,16.5
724.819,14.94
725.139,13.67
725.46,15.03
725.78,13.57
726.1,12.45
726.42,16.96
726.74,15.15
727.06,17.25
727.38,14.59
727.7,15.48
728.02,16.63
728.34,14.44
728.66,14.71
728.98,15.56
729.299,14.38
729.619,16.89
729.939,14.27
730.258,13.71
730.578,13.4
730.897,18.03
731.217,14.85
731.536,15.59
731.856,13.76
732.175,16.7
732.494,16.69
732.814,14.06
733.133,15.53
733.452,14.79
733.771,18.93
734.09,18.07
734.409,15.09
734.728,16.06
735.047,15.28
735.366,15.09
735.684,17.18
736.003,13.14
736.322,15.41
736.641,15.52
736.959,15.44
737.278,12.27
737.596,14.68
737.915,14.82
738.233,13.9
738.552,15.8
738.87,13.77
739.188,16.45
739.507,19.3
739.825,16.27
740.143,17.93
740.461,15.22
740.779,17.08
741.097,15.66
741.415,13.43
741.733,17.79
742.051,15.88
742.369,17.07
742.687,16.56
743.004,17.1
743.322,16.56
743.64,15.74
743.957,15.8
744.275,14.63
744.593,18.51
744.91,16.05
745.227,17.18
745.545,17.68
745.862,13.81
746.179,18.17
746.497,16.47
746.814,14.53
747.131,16.38
747.448,17.28
747.765,16.78
748.082,19.91
748.399,15.73
748.716,16.3
749.033,15.47
749.35,18.07
749.667,14.03
749.983,12.69
750.3,16.36
750.617,17.38
750.933,16.54
751.25,16.62
751.566,16.21
751.883,19.33
752.199,16.86
752.516,15.43
752.832,15.85
753.148,16.18
753.464,16.78
753.781,19.03
754.097,20.3
754.413,17.36
754.729,15.5
755.045,15.61
755.361,15.85
755.677,17
755.992,18.55
756.308,17.52
756.624,20.2
756.94,19.16
757.255,18.92
757.571,18.42
757.887,15.59
758.202,17.76
758.518,21.6
758.833,18.67
759.148,19.15
759.464,19.13
759.779,17.12
760.094,19.69
760.41,15.26
760.725,17.15
761.04,17.33
761.355,19.19
761.67,19.48
761.985,19.48
762.3,17.93
762.615,17.27
762.93,17.32
763.244,20.02
763.559,20.31
763.874,16.7
764.188,18.48
764.503,18.8
764.818,16.49
765.132,17.67
765.447,18.77
765.761,18.88
766.075,20.91
766.39,18.72
766.704,20.44
767.018,20.19
767.332,20.36
767.646,20.53
767.961,20.71
768.275,21.94
768.589,19.03
768.903,17.21
769.216,18.09
769.53,20.21
769.844,17.42
770.158,19.93
770.472,19.05
770.785,15.98
771.099,18.72
771.413,18.35
771.726,17.99
772.04,20.3
772.353,16.87
772.666,21.96
772.98,16.78
773.293,16.78
773.606,21.92
773.919,17.18
774.233,21.69
774.546,15.98
774.859,19.4
775.172,18.49
775.485,22
775.798,17.93
776.111,22.05
776.423,15.75
776.736,21.28
777.049,21.7
777.362,19.42
777.674,20.37
777.987,22.77
778.299,16.08
778.612,17.41
778.924,21.59
779.237,22.46
779.549,21.08
779.862,22.08
780.174,20.74
780.486,16.12
780.798,16.14
781.11,18.1
781.422,20.45
781.735,23.46
782.046,21.18
782.358,16.72
782.67,19.26
782.982,18.87
783.294,21.14
783.606,20.4
783.917,21.67
784.229,19.77
784.541,22.17
784.852,19.9
785.164,21.76
785.475,17.51
785.787,21.27
786.098,21.18
786.41,20.78
786.721,27.03
787.032,19.76
787.343,21.64
787.654,19.32
787.966,22.93
788.277,21.56
788.588,20.3
788.899,24.12
789.209,27.67
789.52,17.34
789.831,21.56
790.142,24.22
790.453,24.04
790.763,30.36
791.074,23.49
791.385,20.18
791.695,20.83
792.006,24.22
792.316,23.15
792.626,20.48
792.937,22.6
793.247,17.74
793.557,21.45
793.868,19.89
794.178,19.37
794.488,23.94
794.798,22.15
795.108,18.92
795.418,21.52
795.728,20.04
796.038,20.55
796.348,17.91
796.657,27.94
796.967,21.95
797.277,23.45
797.587,24.22
797.896,20.36
798.206,23.09
798.515,20.34
798.825,20.72
799.134,15.64
799.444,16.44
799.753,22.71
800.062,21.21
800.371,24.05
800.681,16.89
800.99,19.24
801.299,22.35
801.608,24.51
801.917,25.26
802.226,22.01
802.535,20.63
802.844,17.65
803.152,21.77
803.461,16.58
803.77,22.01
804.078,23.72
804.387,27.35
804.696,22.5
805.004,25
805.313,20.92
805.621,30.18
805.93,23.1
806.238,21.47
806.546,21.38
806.854,24.71
807.163,20.73
807.471,23.47
807.779,23.76
808.087,25
808.395,24.4
808.703,17.37
809.011,23.35
809.319,14.4
809.626,17.65
809.934,22.85
810.242,24.18
810.55,25.6
810.857,29.03
811.165,24.72
811.472,25.3
811.78,18.74
812.087,26.58
812.395,18.36
812.702,19.78
813.009,22.91
813.317,24.71
813.624,26.9
813.931,22.53
814.238,24.66
814.545,20.65
814.852,23.55
815.159,25.35
815.466,23.21
815.773,24.33
816.08,15.61
816.387,26.3
816.693,27.37
817,29.35
817.307,20.06
817.613,28.34
817.92,17.03
818.226,14.9
818.533,33.75
818.839,20.95
819.146,16.77
819.452,21.26
819.758,27.9
820.064,20.07
820.371,20.07
820.677,25.75
820.983,13.07
821.289,30.37
821.595,27.09
821.901,17.29
822.207,17.97
822.512,25
822.818,18.55
823.124,16.25
823.43,14.43
823.735,26.21
824.041,19.75
824.347,34.34
824.652,19.39
824.957,18.97
825.263,35.91
825.568,17.84
825.874,23.24
826.179,29.34
826.484,11.99
826.789,23.55
827.094,25.8
827.399,30.57
827.705,24.15
828.01,26.63
828.314,23.55
828.619,31.06
828.924,24.09
829.229,25
829.534,28.51
829.838,27.05
830.143,20.45
830.448,35.96
830.752,30.67
831.057,21.48
831.361,10.68
831.666,28.25
831.97,29.25
832.274,9.69
832.579,27.83
832.883,23.66
833.187,23.43
833.491,15.55
833.795,36.18
834.099,25.98
834.403,24.5
834.707,25.63
835.011,36.96
835.315,22.77
835.619,34.6
835.923,19.67
836.226,28.51
836.53,28.51
836.834,16.46
837.137,29.62
837.441,25
837.744,32.41
838.048,30.13
838.351,27.85
838.654,20.1
838.958,38.73
839.261,30.51
839.564,32.46
839.867,21.01
840.17,22.02
840.473,33.91
840.776,33.95
841.079,28.48
841.382,10.86
841.685,19.63
841.988,13.78
842.291,22.29
842.593,22.02
842.896,22.91
843.199,25.52
843.501,34.78
843.804,39.02
844.106,27.71
844.409,28.48
844.711,18.11
845.013,17.34
845.316,18.57
845.618,17.66
845.92,31.92
846.222,31.55
846.524,14.13
846.826,22.31
847.128,27.21
847.43,35.84
847.732,18.92
848.034,35.84
848.336,28.04
848.638,19.51
848.939,39.63
849.241,16.84
849.543,34.3
849.844,30.86
850.146,37.9
850.447,49.28
850.749,35.62
851.05,25.9
851.351,34.2
851.653,17.47
851.954,28.04
852.255,44.24
852.556,45.77
852.857,41.46
853.158,18.92
853.459,33.09
853.76,25
854.061,40.89
854.362,38.85
854.663,16.96
854.964,8.58
855.264,22.82
855.565,18.45
855.866,10.43
856.166,28.04
856.467,21.96
856.767,28.92
857.068,29.86
857.368,8.58
857.668,32.17
857.969,37.9
858.269,37.54
858.569,8.98
858.869,8.58
859.169,12.84
859.469,38.55
859.769,29.86
860.069,24.26
860.369,30.16
860.669,27.21
860.969,25
861.269,20.17
861.568,35.03
861.868,31.55
862.168,8.58
862.467,15.7
862.767,25
863.066,42.79
863.366,5.12
863.665,27.18
863.964,35.92
864.264,34.42
864.563,15.7
864.862,0.97
865.161,15.7
865.46,19.29
865.759,40.29
866.058,34.78
866.357,18.45
866.656,16.96
866.955,15.43
867.254,-14.71
867.552,29.79
867.851,16.96
868.15,17.67
868.448,45.45
868.747,59.41
869.045,11.76
869.344,9.3
869.642,9.3
869.941,11.17
870.239,13.16
870.537,27.65
870.836,57.14
871.134,27.65
871.432,18.01
871.73,1.24
872.028,29.19
872.326,42.79
872.624,13.99
872.922,25
873.22,19.08
873.517,-4.9
873.815,13.16
874.113,11.17
874.411,20.21
874.708,0.97
875.006,12.45
875.303,41.34
875.601,-3.91
875.898,-11.19
876.195,53.72
876.493,26.57
876.79,8.8
877.087,20.28
877.384,1.02
877.682,18.01
877.979,-7.14
878.276,25
878.573,2.5
878.87,32.76
879.166,-7.14
879.463,20.28